File: mrgcv_6.dta
EXPLAIN
TAG	CV
TITLE	LABEL	Cyclic Voltammetry	Test &Identifier
DATE	LABEL	8/24/2015	Date
TIME	LABEL	18:41:10	Time
NOTES	NOTES	1	&Notes...

PSTAT	PSTAT	REF3000-21113	Potentiostat
CHANNEL	IQUANT	NIL	Channel No.
VINIT	POTEN	0.00000E+000	T	Initial &E (V)
VLIMIT1	POTEN	1.30000E+000	F	Scan Limit &1 (V)
VLIMIT2	POTEN	0.00000E+000	F	Scan Limit &2 (V)
VFINAL	POTEN	0.00000E+000	T	Final &E (V)
SCANRATE	QUANT	9.99998E+001	&Scan Rate (mV/s)
STEPSIZE	QUANT	1.00000E+000	St&ep Size (mV)
CYCLES	IQUANT	2	C&ycles (#)
IMODE	SELECTOR	1	I/E Range &Mode
IRANGE	QUANT	1.70000E+004	&Max Current (mA)
AREA	QUANT	1.00000E+000	Electrode &Area (cm^2)
ELECTRODETYPE	SELECTOR	0	Electrode Type
STRIPPING	TOGGLE	F	Used for Stripping
POLARITY	TOGGLE	F	Signal Polarity
CONDIT	TWOPARAM	F	1.50000E+001	0.00000E+000	Conditionin&g	Time(s)	E(V)
DELAY	TWOPARAM	T	5.00000E+000	0.00000E+000	Init. De&lay	Time(s)	Stab.(mV/s)
EQDELAY	QUANT	0.00000E+000	Equil. &Time (s)
IRCOMP	SELECTOR	0	IRCom&p
PFCOR	QUANT	5.00000E+001	PF Corr. (ohm)
SAMPLINGMODE	SELECTOR	1	Sampling &Mode
OCVCURVE	TABLE	19
	Pt	T	Vf	Vm	Ach	Over
	#	s	V vs. Ref.	V	V	bits
	0	0.258333	7.86012E-001	7.86012E-001	1.46289E-003	...........
	1	0.516667	7.86008E-001	7.85788E-001	1.47215E-003	...........
	2	0.775	7.85987E-001	7.85859E-001	1.47679E-003	...........
	3	1.03333	7.85947E-001	7.85988E-001	1.46235E-003	...........
	4	1.29167	7.85915E-001	7.86093E-001	1.46222E-003	...........
	5	1.55	7.85919E-001	7.85857E-001	1.46129E-003	...........
	6	1.80833	7.85942E-001	7.85773E-001	1.42712E-003	...........
	7	2.06667	7.85940E-001	7.85881E-001	1.44572E-003	...........
	8	2.325	7.85910E-001	7.85988E-001	1.42339E-003	...........
	9	2.58333	7.85889E-001	7.86047E-001	1.44985E-003	...........
	10	2.84167	7.85902E-001	7.85776E-001	1.43925E-003	...........
	11	3.1	7.85922E-001	7.85777E-001	1.43255E-003	...........
	12	3.35833	7.85912E-001	7.85896E-001	1.42869E-003	...........
	13	3.61667	7.85881E-001	7.86001E-001	1.43785E-003	...........
	14	3.875	7.85869E-001	7.85898E-001	1.41139E-003	...........
	15	4.13333	7.85883E-001	7.85750E-001	1.41599E-003	...........
	16	4.39167	7.85891E-001	7.85805E-001	1.41479E-003	...........
	17	4.65	7.85872E-001	7.85897E-001	1.44782E-003	...........
	18	4.90833	7.85850E-001	7.86013E-001	1.46599E-003	...........
EOC	QUANT	0.78585	Open Circuit (V)
PSTATMODEL	IQUANT	6	Pstat Model
PSTATSECTION	LABEL	REF3000-21113	Pstat Section
PSTATSERIALNO	LABEL	21113	Pstat Serial Number
CTRLMODE	IQUANT	1	Control Mode
IESTAB	IQUANT	2	I/E Stability
CASPEED	IQUANT	2	Control Amp Speed
CONVENTION	IQUANT	1	Current Convention
ICHRANGE	IQUANT	2	Ich Range
ICHRANGEMODE	TOGGLE	T	Ich Auto Range
ICHOFFSETENABLE	TOGGLE	F	Ich Offset Enable
ICHOFFSET	QUANT	0	Ich Offset (V)
ICHFILTER	IQUANT	2	Ich Filter
VCHRANGE	IQUANT	2	Vch Range
VCHRANGEMODE	TOGGLE	T	Vch Auto Range
VCHOFFSETENABLE	TOGGLE	F	Vch Offset Enable
VCHOFFSET	QUANT	0	Vch Offset (V)
VCHFILTER	IQUANT	2	Vch Filter
ACHRANGE	IQUANT	2	Ach Range
ACHOFFSETENABLE	TOGGLE	F	Ach Offset Enable
ACHOFFSET	QUANT	0	Ach Offset (V)
ACHFILTER	IQUANT	1	Ach Filter
IERANGELOWERLIMIT	IQUANT	10	I/E Range Lower Limit
IERANGEMODE	TOGGLE	F	I/E AutoRange
IERANGE	IQUANT	13	I/E Range
POSFEEDENABLE	TOGGLE	F	Positive Feedback IR Comp
POSFEEDRESISTANCE	QUANT	0	Positive Feedback Resistance (ohm)
ACHSELECT	IQUANT	0	Ach Select
CABLEID	IQUANT	14	Cable ID
DCCALDATE	LABEL	1/12/2015	DC Calibration Date
ACCALDATE	LABEL	6/23/2015	AC Calibration Date
THERMOSELECT	IQUANT	1	Thermo Select
FRAMEWORKVERSION	QUANT	6.25	Framework Version
INSTRUMENTVERSION	LABEL	3.28	Instrument Version
BOOSTERDCCALDATE	LABEL	6/23/2015	Booster DC Calibration Date
CURVE1	TABLE
	Pt	T	Vf	Im	Vu	Sig	Ach	IERange	Over
	#	s	V vs. Ref.	A	V	V	V	#	bits
	0	0.01	7.85180E-001	-1.17452E-002	0.00000E+000	7.85850E-001	1.02409E-003	13	...........
	4	0.05	7.89140E-001	3.87144E-002	0.00000E+000	7.89850E-001	1.02659E-003	13	...........
	8	0.09	7.93105E-001	8.61406E-002	0.00000E+000	7.93850E-001	1.04826E-003	13	...........
	12	0.13	7.97092E-001	1.32485E-001	0.00000E+000	7.97850E-001	1.03576E-003	13	...........
	16	0.17	8.01122E-001	1.77771E-001	0.00000E+000	8.01850E-001	1.03326E-003	13	...........
	20	0.21	8.05143E-001	2.23091E-001	0.00000E+000	8.05850E-001	1.02159E-003	13	...........
	24	0.25	8.09122E-001	2.67303E-001	0.00000E+000	8.09850E-001	1.03159E-003	13	...........
	28	0.29	8.12967E-001	3.12098E-001	0.00000E+000	8.13850E-001	1.03243E-003	13	...........
	32	0.33	8.17100E-001	3.55605E-001	0.00000E+000	8.17850E-001	1.03743E-003	13	...........
	36	0.37	8.21007E-001	3.99326E-001	0.00000E+000	8.21850E-001	1.03409E-003	13	...........
	40	0.41	8.25060E-001	4.42457E-001	0.00000E+000	8.25850E-001	1.02243E-003	13	...........
	44	0.45	8.29129E-001	4.85579E-001	0.00000E+000	8.29850E-001	1.03826E-003	13	...........
	48	0.49	8.33103E-001	5.27496E-001	0.00000E+000	8.33850E-001	1.03743E-003	13	...........
	52	0.53	8.36999E-001	5.69610E-001	0.00000E+000	8.37850E-001	1.02576E-003	13	...........
	56	0.57	8.41100E-001	6.10330E-001	0.00000E+000	8.41850E-001	1.03409E-003	13	...........
	60	0.61	8.44983E-001	6.50714E-001	0.00000E+000	8.45850E-001	1.02993E-003	13	...........
	64	0.65	8.49069E-001	6.91074E-001	0.00000E+000	8.49850E-001	1.03659E-003	13	...........
	68	0.69	8.53087E-001	7.30958E-001	0.00000E+000	8.53850E-001	1.03576E-003	13	...........
	72	0.73	8.56996E-001	7.70251E-001	0.00000E+000	8.57850E-001	1.03493E-003	13	...........
	76	0.77	8.60973E-001	8.09422E-001	0.00000E+000	8.61850E-001	1.01493E-003	13	...........
	80	0.81	8.65056E-001	8.50142E-001	0.00000E+000	8.65850E-001	1.03326E-003	13	...........
	84	0.85	8.69068E-001	8.92510E-001	0.00000E+000	8.69850E-001	1.02493E-003	13	...........
	88	0.89	8.73021E-001	9.35706E-001	0.00000E+000	8.73850E-001	1.03493E-003	13	...........
	92	0.93	8.77040E-001	9.79124E-001	0.00000E+000	8.77850E-001	1.02826E-003	13	...........
	96	0.97	8.80988E-001	1.02034E+000	0.00000E+000	8.81850E-001	1.03159E-003	13	...........
	100	1.01	8.84937E-001	1.06139E+000	0.00000E+000	8.85850E-001	1.03659E-003	13	...........
	104	1.05	8.88992E-001	1.10333E+000	0.00000E+000	8.89850E-001	1.03576E-003	13	...........
	108	1.09	8.93035E-001	1.14417E+000	0.00000E+000	8.93850E-001	1.01993E-003	13	...........
	112	1.13	8.96948E-001	1.18438E+000	0.00000E+000	8.97850E-001	1.02159E-003	13	...........
	116	1.17	9.00983E-001	1.22358E+000	0.00000E+000	9.01850E-001	1.04409E-003	13	...........
	120	1.21	9.04963E-001	1.26113E+000	0.00000E+000	9.05850E-001	1.03159E-003	13	...........
	124	1.25	9.09007E-001	1.29792E+000	0.00000E+000	9.09850E-001	1.03576E-003	13	...........
	128	1.29	9.12951E-001	1.33346E+000	0.00000E+000	9.13850E-001	1.03576E-003	13	...........
	132	1.33	9.17016E-001	1.36887E+000	0.00000E+000	9.17850E-001	1.04076E-003	13	...........
	136	1.37	9.20940E-001	1.40455E+000	0.00000E+000	9.21850E-001	1.02493E-003	13	...........
	140	1.41	9.24938E-001	1.44771E+000	0.00000E+000	9.25850E-001	1.04826E-003	13	...........
	144	1.45	9.28941E-001	1.49635E+000	0.00000E+000	9.29850E-001	1.03576E-003	13	...........
	148	1.49	9.32940E-001	1.54760E+000	0.00000E+000	9.33850E-001	1.03076E-003	13	...........
	152	1.53	9.36979E-001	1.59873E+000	0.00000E+000	9.37850E-001	1.04159E-003	13	...........
	156	1.57	9.41000E-001	1.64806E+000	0.00000E+000	9.41850E-001	1.02993E-003	13	...........
	160	1.61	9.44943E-001	1.69524E+000	0.00000E+000	9.45850E-001	1.02826E-003	13	...........
	164	1.65	9.48970E-001	1.73900E+000	0.00000E+000	9.49850E-001	1.03659E-003	13	...........
	168	1.69	9.52916E-001	1.77968E+000	0.00000E+000	9.53850E-001	1.03243E-003	13	...........
	172	1.73	9.56938E-001	1.81727E+000	0.00000E+000	9.57850E-001	1.03076E-003	13	...........
	176	1.77	9.61000E-001	1.85084E+000	0.00000E+000	9.61850E-001	1.03743E-003	13	...........
	180	1.81	9.64866E-001	1.88274E+000	0.00000E+000	9.65850E-001	1.04409E-003	13	...........
	184	1.85	9.68816E-001	1.91057E+000	0.00000E+000	9.69850E-001	1.02743E-003	13	...........
	188	1.89	9.72859E-001	1.93797E+000	0.00000E+000	9.73850E-001	1.03076E-003	13	...........
	192	1.93	9.76831E-001	1.96394E+000	0.00000E+000	9.77850E-001	1.03826E-003	13	...........
	196	1.97	9.80829E-001	1.98993E+000	0.00000E+000	9.81850E-001	1.02493E-003	13	...........
	200	2.01	9.84819E-001	2.02103E+000	0.00000E+000	9.85850E-001	1.04409E-003	13	...........
	204	2.05	9.88790E-001	2.05787E+000	0.00000E+000	9.89850E-001	1.01909E-003	13	...........
	208	2.09	9.92709E-001	2.09769E+000	0.00000E+000	9.93850E-001	1.05909E-003	13	...........
	212	2.13	9.96807E-001	2.13696E+000	0.00000E+000	9.97850E-001	1.05493E-003	13	...........
	216	2.17	1.00080E+000	2.17100E+000	0.00000E+000	1.00185E+000	1.03826E-003	13	...........
	220	2.21	1.00479E+000	2.20349E+000	0.00000E+000	1.00585E+000	1.04159E-003	13	...........
	224	2.25	1.00879E+000	2.23759E+000	0.00000E+000	1.00985E+000	1.02326E-003	13	...........
	228	2.29	1.01278E+000	2.26913E+000	0.00000E+000	1.01385E+000	1.02743E-003	13	...........
	232	2.33	1.01678E+000	2.29794E+000	0.00000E+000	1.01785E+000	1.03909E-003	13	...........
	236	2.37	1.02074E+000	2.32405E+000	0.00000E+000	1.02185E+000	1.02659E-003	13	...........
	240	2.41	1.02473E+000	2.34748E+000	0.00000E+000	1.02585E+000	1.03409E-003	13	...........
	244	2.45	1.02875E+000	2.36823E+000	0.00000E+000	1.02985E+000	1.03409E-003	13	...........
	248	2.49	1.03276E+000	2.38673E+000	0.00000E+000	1.03385E+000	1.04326E-003	13	...........
	252	2.53	1.03675E+000	2.40508E+000	0.00000E+000	1.03785E+000	1.03409E-003	13	...........
	256	2.57	1.04075E+000	2.44148E+000	0.00000E+000	1.04185E+000	1.03243E-003	13	...........
	260	2.61	1.04474E+000	2.51108E+000	0.00000E+000	1.04585E+000	1.03243E-003	13	...........
	264	2.65	1.04871E+000	2.60596E+000	0.00000E+000	1.04985E+000	1.03826E-003	13	...........
	268	2.69	1.05274E+000	2.70497E+000	0.00000E+000	1.05385E+000	1.04493E-003	13	...........
	272	2.73	1.05672E+000	2.79629E+000	0.00000E+000	1.05785E+000	1.03243E-003	13	...........
	276	2.77	1.06070E+000	2.87531E+000	0.00000E+000	1.06185E+000	1.04076E-003	13	...........
	280	2.81	1.06474E+000	2.94135E+000	0.00000E+000	1.06585E+000	1.02493E-003	13	...........
	284	2.85	1.06871E+000	2.99488E+000	0.00000E+000	1.06985E+000	1.03159E-003	13	...........
	288	2.89	1.07272E+000	3.03755E+000	0.00000E+000	1.07385E+000	1.03493E-003	13	...........
	292	2.93	1.07671E+000	3.06923E+000	0.00000E+000	1.07785E+000	1.03076E-003	13	...........
	296	2.97	1.08070E+000	3.08987E+000	0.00000E+000	1.08185E+000	1.02993E-003	13	...........
	300	3.01	1.08470E+000	3.09998E+000	0.00000E+000	1.08585E+000	1.03576E-003	13	...........
	304	3.05	1.08865E+000	3.10237E+000	0.00000E+000	1.08985E+000	1.05243E-003	13	...........
	308	3.09	1.09269E+000	3.10120E+000	0.00000E+000	1.09385E+000	1.03826E-003	13	...........
	312	3.13	1.09670E+000	3.09671E+000	0.00000E+000	1.09785E+000	1.03326E-003	13	...........
	316	3.17	1.10069E+000	3.09182E+000	0.00000E+000	1.10185E+000	1.03243E-003	13	...........
	320	3.21	1.10467E+000	3.09727E+000	0.00000E+000	1.10585E+000	1.03326E-003	13	...........
	324	3.25	1.10868E+000	3.11419E+000	0.00000E+000	1.10985E+000	1.03076E-003	13	...........
	328	3.29	1.11265E+000	3.13474E+000	0.00000E+000	1.11385E+000	1.03576E-003	13	...........
	332	3.33	1.11668E+000	3.15474E+000	0.00000E+000	1.11785E+000	1.02493E-003	13	...........
	336	3.37	1.12068E+000	3.16646E+000	0.00000E+000	1.12185E+000	1.03076E-003	13	...........
	340	3.41	1.12468E+000	3.17674E+000	0.00000E+000	1.12585E+000	1.03243E-003	13	...........
	344	3.45	1.12868E+000	3.18876E+000	0.00000E+000	1.12985E+000	1.02493E-003	13	...........
	348	3.49	1.13263E+000	3.19767E+000	0.00000E+000	1.13385E+000	1.03159E-003	13	...........
	352	3.53	1.13665E+000	3.20276E+000	0.00000E+000	1.13785E+000	1.03326E-003	13	...........
	356	3.57	1.14069E+000	3.20390E+000	0.00000E+000	1.14185E+000	1.02993E-003	13	...........
	360	3.61	1.14467E+000	3.20233E+000	0.00000E+000	1.14585E+000	1.02993E-003	13	...........
	364	3.65	1.14866E+000	3.19706E+000	0.00000E+000	1.14985E+000	1.02993E-003	13	...........
	368	3.69	1.15263E+000	3.18876E+000	0.00000E+000	1.15385E+000	1.02409E-003	13	...........
	372	3.73	1.15663E+000	3.18620E+000	0.00000E+000	1.15785E+000	1.02909E-003	13	...........
	376	3.77	1.16062E+000	3.26094E+000	0.00000E+000	1.16185E+000	1.02909E-003	13	...........
	380	3.81	1.16460E+000	3.42249E+000	0.00000E+000	1.16585E+000	1.03659E-003	13	...........
	384	3.85	1.16865E+000	3.63494E+000	0.00000E+000	1.16985E+000	1.03326E-003	13	...........
	388	3.89	1.17260E+000	3.83288E+000	0.00000E+000	1.17385E+000	1.03909E-003	13	...........
	392	3.93	1.17658E+000	3.99588E+000	0.00000E+000	1.17785E+000	1.04909E-003	13	...........
	396	3.97	1.18057E+000	4.12163E+000	0.00000E+000	1.18185E+000	1.02326E-003	13	...........
	400	4.01	1.18455E+000	4.21387E+000	0.00000E+000	1.18585E+000	1.03159E-003	13	...........
	404	4.05	1.18855E+000	4.27629E+000	0.00000E+000	1.18985E+000	1.02409E-003	13	...........
	408	4.09	1.19256E+000	4.31358E+000	0.00000E+000	1.19385E+000	1.03909E-003	13	...........
	412	4.13	1.19655E+000	4.32823E+000	0.00000E+000	1.19785E+000	1.03409E-003	13	...........
	416	4.17	1.20056E+000	4.31954E+000	0.00000E+000	1.20185E+000	1.02826E-003	13	...........
	420	4.21	1.20453E+000	4.28824E+000	0.00000E+000	1.20585E+000	1.03076E-003	13	...........
	424	4.25	1.20853E+000	4.24267E+000	0.00000E+000	1.20985E+000	1.02493E-003	13	...........
	428	4.29	1.21253E+000	4.19005E+000	0.00000E+000	1.21385E+000	1.02826E-003	13	...........
	432	4.33	1.21652E+000	4.13352E+000	0.00000E+000	1.21785E+000	1.02993E-003	13	...........
	436	4.37	1.22052E+000	4.07880E+000	0.00000E+000	1.22185E+000	1.02159E-003	13	...........
	440	4.41	1.22456E+000	4.04193E+000	0.00000E+000	1.22585E+000	1.02076E-003	13	...........
	444	4.45	1.22852E+000	4.02375E+000	0.00000E+000	1.22985E+000	1.02826E-003	13	...........
	448	4.49	1.23249E+000	4.01334E+000	0.00000E+000	1.23385E+000	1.05076E-003	13	...........
	452	4.53	1.23648E+000	4.00234E+000	0.00000E+000	1.23785E+000	1.02576E-003	13	...........
	456	4.57	1.24048E+000	3.98141E+000	0.00000E+000	1.24185E+000	1.03576E-003	13	...........
	460	4.61	1.24447E+000	3.96097E+000	0.00000E+000	1.24585E+000	1.03076E-003	13	...........
	464	4.65	1.24846E+000	3.94429E+000	0.00000E+000	1.24985E+000	1.02743E-003	13	...........
	468	4.69	1.25244E+000	3.92463E+000	0.00000E+000	1.25385E+000	1.02743E-003	13	...........
	472	4.73	1.25647E+000	3.90153E+000	0.00000E+000	1.25785E+000	1.05493E-003	13	...........
	476	4.77	1.26045E+000	3.87376E+000	0.00000E+000	1.26185E+000	1.04076E-003	13	...........
	480	4.81	1.26446E+000	3.84383E+000	0.00000E+000	1.26585E+000	1.03243E-003	13	...........
	484	4.85	1.26847E+000	3.81089E+000	0.00000E+000	1.26985E+000	1.04076E-003	13	...........
	488	4.89	1.27249E+000	3.77471E+000	0.00000E+000	1.27385E+000	1.05993E-003	13	...........
	492	4.93	1.27645E+000	3.75146E+000	0.00000E+000	1.27785E+000	1.03909E-003	13	...........
	496	4.97	1.28042E+000	3.90847E+000	0.00000E+000	1.28185E+000	1.02576E-003	13	...........
	500	5.01	1.28439E+000	4.22711E+000	0.00000E+000	1.28585E+000	1.02993E-003	13	...........
	504	5.05	1.28834E+000	4.61403E+000	0.00000E+000	1.28985E+000	1.04243E-003	13	...........
	508	5.09	1.29235E+000	4.94381E+000	0.00000E+000	1.29385E+000	1.02909E-003	13	...........
	512	5.13	1.29632E+000	5.19493E+000	0.00000E+000	1.29785E+000	1.02493E-003	13	...........
	516	5.17	1.29626E+000	5.31197E+000	0.00000E+000	1.29785E+000	1.03326E-003	13	...........
	520	5.21	1.29234E+000	5.32583E+000	0.00000E+000	1.29385E+000	1.02909E-003	13	...........
	524	5.25	1.28835E+000	5.29569E+000	0.00000E+000	1.28985E+000	1.02743E-003	13	...........
	528	5.29	1.28434E+000	5.22801E+000	0.00000E+000	1.28585E+000	1.02409E-003	13	...........
	532	5.33	1.28027E+000	5.12795E+000	0.00000E+000	1.28185E+000	1.03659E-003	13	...........
	536	5.37	1.27637E+000	4.99601E+000	0.00000E+000	1.27785E+000	1.01743E-003	13	...........
	540	5.41	1.27236E+000	4.83619E+000	0.00000E+000	1.27385E+000	1.02659E-003	13	...........
	544	5.45	1.26838E+000	4.66496E+000	0.00000E+000	1.26985E+000	1.02826E-003	13	...........
	548	5.49	1.26441E+000	4.49241E+000	0.00000E+000	1.26585E+000	1.02659E-003	13	...........
	552	5.53	1.26040E+000	4.32269E+000	0.00000E+000	1.26185E+000	1.03326E-003	13	...........
	556	5.57	1.25639E+000	4.16280E+000	0.00000E+000	1.25785E+000	1.03243E-003	13	...........
	560	5.61	1.25247E+000	4.03168E+000	0.00000E+000	1.25385E+000	1.03326E-003	13	...........
	564	5.65	1.24846E+000	3.93069E+000	0.00000E+000	1.24985E+000	1.02993E-003	13	...........
	568	5.69	1.24445E+000	3.84373E+000	0.00000E+000	1.24585E+000	1.03409E-003	13	...........
	572	5.73	1.24048E+000	3.76137E+000	0.00000E+000	1.24185E+000	1.08909E-003	13	...........
	576	5.77	1.23649E+000	3.67389E+000	0.00000E+000	1.23785E+000	1.03909E-003	13	...........
	580	5.81	1.23250E+000	3.58895E+000	0.00000E+000	1.23385E+000	1.05993E-003	13	...........
	584	5.85	1.22853E+000	3.51287E+000	0.00000E+000	1.22985E+000	1.02826E-003	13	...........
	588	5.89	1.22461E+000	3.43644E+000	0.00000E+000	1.22585E+000	1.03409E-003	13	...........
	592	5.93	1.22057E+000	3.35984E+000	0.00000E+000	1.22185E+000	1.04576E-003	13	...........
	596	5.97	1.21661E+000	3.28232E+000	0.00000E+000	1.21785E+000	1.03243E-003	13	...........
	600	6.01	1.21257E+000	3.20585E+000	0.00000E+000	1.21385E+000	1.03409E-003	13	...........
	604	6.05	1.20860E+000	3.12971E+000	0.00000E+000	1.20985E+000	1.02493E-003	13	...........
	608	6.09	1.20464E+000	3.05244E+000	0.00000E+000	1.20585E+000	1.03993E-003	13	...........
	612	6.13	1.20062E+000	2.98383E+000	0.00000E+000	1.20185E+000	1.02826E-003	13	...........
	616	6.17	1.19663E+000	3.04393E+000	0.00000E+000	1.19785E+000	1.02993E-003	13	...........
	620	6.21	1.19262E+000	3.23427E+000	0.00000E+000	1.19385E+000	1.04243E-003	13	...........
	624	6.25	1.18856E+000	3.48166E+000	0.00000E+000	1.18985E+000	1.03159E-003	13	...........
	628	6.29	1.18458E+000	3.68131E+000	0.00000E+000	1.18585E+000	1.03243E-003	13	...........
	632	6.33	1.18059E+000	3.81016E+000	0.00000E+000	1.18185E+000	1.05076E-003	13	...........
	636	6.37	1.17658E+000	3.87974E+000	0.00000E+000	1.17785E+000	1.02159E-003	13	...........
	640	6.41	1.17262E+000	3.90048E+000	0.00000E+000	1.17385E+000	1.05743E-003	13	...........
	644	6.45	1.16861E+000	3.88400E+000	0.00000E+000	1.16985E+000	1.02743E-003	13	...........
	648	6.49	1.16458E+000	3.83973E+000	0.00000E+000	1.16585E+000	1.06909E-003	13	...........
	652	6.53	1.16058E+000	3.77258E+000	0.00000E+000	1.16185E+000	1.04576E-003	13	...........
	656	6.57	1.15659E+000	3.68439E+000	0.00000E+000	1.15785E+000	1.03493E-003	13	...........
	660	6.61	1.15264E+000	3.57928E+000	0.00000E+000	1.15385E+000	1.02909E-003	13	...........
	664	6.65	1.14865E+000	3.46682E+000	0.00000E+000	1.14985E+000	1.02326E-003	13	...........
	668	6.69	1.14468E+000	3.35332E+000	0.00000E+000	1.14585E+000	1.04076E-003	13	...........
	672	6.73	1.14070E+000	3.24068E+000	0.00000E+000	1.14185E+000	1.05576E-003	13	...........
	676	6.77	1.13667E+000	3.13271E+000	0.00000E+000	1.13785E+000	1.04326E-003	13	...........
	680	6.81	1.13267E+000	3.04218E+000	0.00000E+000	1.13385E+000	1.03076E-003	13	...........
	684	6.85	1.12871E+000	2.97266E+000	0.00000E+000	1.12985E+000	1.04159E-003	13	...........
	688	6.89	1.12465E+000	2.91354E+000	0.00000E+000	1.12585E+000	1.03159E-003	13	...........
	692	6.93	1.12071E+000	2.85695E+000	0.00000E+000	1.12185E+000	1.02826E-003	13	...........
	696	6.97	1.11669E+000	2.79605E+000	0.00000E+000	1.11785E+000	1.02659E-003	13	...........
	700	7.01	1.11269E+000	2.73405E+000	0.00000E+000	1.11385E+000	1.04576E-003	13	...........
	704	7.05	1.10865E+000	2.67736E+000	0.00000E+000	1.10985E+000	1.02659E-003	13	...........
	708	7.09	1.10470E+000	2.62038E+000	0.00000E+000	1.10585E+000	1.03826E-003	13	...........
	712	7.13	1.10071E+000	2.56185E+000	0.00000E+000	1.10185E+000	1.02743E-003	13	...........
	716	7.17	1.09672E+000	2.50245E+000	0.00000E+000	1.09785E+000	1.04076E-003	13	...........
	720	7.21	1.09268E+000	2.44281E+000	0.00000E+000	1.09385E+000	1.03159E-003	13	...........
	724	7.25	1.08872E+000	2.38304E+000	0.00000E+000	1.08985E+000	1.03243E-003	13	...........
	728	7.29	1.08471E+000	2.32202E+000	0.00000E+000	1.08585E+000	1.04409E-003	13	...........
	732	7.33	1.08074E+000	2.26613E+000	0.00000E+000	1.08185E+000	1.04993E-003	13	...........
	736	7.37	1.07675E+000	2.26394E+000	0.00000E+000	1.07785E+000	1.03743E-003	13	...........
	740	7.41	1.07274E+000	2.32828E+000	0.00000E+000	1.07385E+000	1.03409E-003	13	...........
	744	7.45	1.06872E+000	2.43033E+000	0.00000E+000	1.06985E+000	1.02743E-003	13	...........
	748	7.49	1.06474E+000	2.51824E+000	0.00000E+000	1.06585E+000	1.04326E-003	13	...........
	752	7.53	1.06073E+000	2.57266E+000	0.00000E+000	1.06185E+000	1.03743E-003	13	...........
	756	7.57	1.05672E+000	2.59748E+000	0.00000E+000	1.05785E+000	1.04243E-003	13	...........
	760	7.61	1.05270E+000	2.59626E+000	0.00000E+000	1.05385E+000	1.03409E-003	13	...........
	764	7.65	1.04873E+000	2.57447E+000	0.00000E+000	1.04985E+000	1.03159E-003	13	...........
	768	7.69	1.04478E+000	2.53738E+000	0.00000E+000	1.04585E+000	1.02826E-003	13	...........
	772	7.73	1.04074E+000	2.48753E+000	0.00000E+000	1.04185E+000	1.03826E-003	13	...........
	776	7.77	1.03674E+000	2.42609E+000	0.00000E+000	1.03785E+000	1.02909E-003	13	...........
	780	7.81	1.03275E+000	2.35722E+000	0.00000E+000	1.03385E+000	1.03493E-003	13	...........
	784	7.85	1.02876E+000	2.28441E+000	0.00000E+000	1.02985E+000	1.02826E-003	13	...........
	788	7.89	1.02475E+000	2.21090E+000	0.00000E+000	1.02585E+000	1.02993E-003	13	...........
	792	7.93	1.02078E+000	2.13802E+000	0.00000E+000	1.02185E+000	1.04326E-003	13	...........
	796	7.97	1.01676E+000	2.06621E+000	0.00000E+000	1.01785E+000	1.02576E-003	13	...........
	800	8.01	1.01278E+000	2.00645E+000	0.00000E+000	1.01385E+000	1.02826E-003	13	...........
	804	8.05	1.00879E+000	1.95838E+000	0.00000E+000	1.00985E+000	1.02409E-003	13	...........
	808	8.09	1.00480E+000	1.91705E+000	0.00000E+000	1.00585E+000	1.02326E-003	13	...........
	812	8.13	1.00081E+000	1.87715E+000	0.00000E+000	1.00185E+000	1.03159E-003	13	...........
	816	8.17	9.96794E-001	1.83267E+000	0.00000E+000	9.97850E-001	1.03493E-003	13	...........
	820	8.21	9.92830E-001	1.78642E+000	0.00000E+000	9.93850E-001	1.02993E-003	13	...........
	824	8.25	9.88850E-001	1.74370E+000	0.00000E+000	9.89850E-001	1.04826E-003	13	...........
	828	8.29	9.84852E-001	1.69958E+000	0.00000E+000	9.85850E-001	1.05159E-003	13	...........
	832	8.33	9.80885E-001	1.65430E+000	0.00000E+000	9.81850E-001	1.02326E-003	13	...........
	836	8.37	9.76839E-001	1.60753E+000	0.00000E+000	9.77850E-001	1.02659E-003	13	...........
	840	8.41	9.72934E-001	1.55974E+000	0.00000E+000	9.73850E-001	1.02993E-003	13	...........
	844	8.45	9.68870E-001	1.51172E+000	0.00000E+000	9.69850E-001	1.04159E-003	13	...........
	848	8.49	9.64884E-001	1.46283E+000	0.00000E+000	9.65850E-001	1.02409E-003	13	...........
	852	8.53	9.60862E-001	1.41556E+000	0.00000E+000	9.61850E-001	1.03326E-003	13	...........
	856	8.57	9.56891E-001	1.38086E+000	0.00000E+000	9.57850E-001	1.04076E-003	13	...........
	860	8.61	9.52873E-001	1.36951E+000	0.00000E+000	9.53850E-001	1.04659E-003	13	...........
	864	8.65	9.48839E-001	1.37659E+000	0.00000E+000	9.49850E-001	1.03826E-003	13	...........
	868	8.69	9.44894E-001	1.38409E+000	0.00000E+000	9.45850E-001	1.04576E-003	13	...........
	872	8.73	9.40875E-001	1.38375E+000	0.00000E+000	9.41850E-001	1.03659E-003	13	...........
	876	8.77	9.36850E-001	1.37241E+000	0.00000E+000	9.37850E-001	1.03576E-003	13	...........
	880	8.81	9.32880E-001	1.35141E+000	0.00000E+000	9.33850E-001	1.04409E-003	13	...........
	884	8.85	9.28910E-001	1.32186E+000	0.00000E+000	9.29850E-001	1.04159E-003	13	...........
	888	8.89	9.24905E-001	1.28491E+000	0.00000E+000	9.25850E-001	1.02993E-003	13	...........
	892	8.93	9.20905E-001	1.24338E+000	0.00000E+000	9.21850E-001	1.04243E-003	13	...........
	896	8.97	9.16901E-001	1.19703E+000	0.00000E+000	9.17850E-001	1.03326E-003	13	...........
	900	9.01	9.12903E-001	1.14807E+000	0.00000E+000	9.13850E-001	1.03826E-003	13	...........
	904	9.05	9.08887E-001	1.09764E+000	0.00000E+000	9.09850E-001	1.02993E-003	13	...........
	908	9.09	9.04908E-001	1.04694E+000	0.00000E+000	9.05850E-001	1.03993E-003	13	...........
	912	9.13	9.01039E-001	9.96487E-001	0.00000E+000	9.01850E-001	1.02743E-003	13	...........
	916	9.17	8.96898E-001	9.46692E-001	0.00000E+000	8.97850E-001	1.02909E-003	13	...........
	920	9.21	8.93055E-001	9.01446E-001	0.00000E+000	8.93850E-001	1.02909E-003	13	...........
	924	9.25	8.88934E-001	8.63235E-001	0.00000E+000	8.89850E-001	1.03493E-003	13	...........
	928	9.29	8.84932E-001	8.26663E-001	0.00000E+000	8.85850E-001	1.04159E-003	13	...........
	932	9.33	8.80939E-001	7.91394E-001	0.00000E+000	8.81850E-001	1.03076E-003	13	...........
	936	9.37	8.76962E-001	7.54404E-001	0.00000E+000	8.77850E-001	1.04243E-003	13	...........
	940	9.41	8.72955E-001	7.15069E-001	0.00000E+000	8.73850E-001	1.03076E-003	13	...........
	944	9.45	8.69071E-001	6.76981E-001	0.00000E+000	8.69850E-001	1.03576E-003	13	...........
	948	9.49	8.65002E-001	6.38433E-001	0.00000E+000	8.65850E-001	1.03659E-003	13	...........
	952	9.53	8.61004E-001	5.98836E-001	0.00000E+000	8.61850E-001	1.03159E-003	13	...........
	956	9.57	8.56971E-001	5.58206E-001	0.00000E+000	8.57850E-001	1.04076E-003	13	...........
	960	9.61	8.53057E-001	5.17076E-001	0.00000E+000	8.53850E-001	1.03243E-003	13	...........
	964	9.65	8.48959E-001	4.75200E-001	0.00000E+000	8.49850E-001	1.02409E-003	13	...........
	968	9.69	8.44945E-001	4.32520E-001	0.00000E+000	8.45850E-001	1.03576E-003	13	...........
	972	9.73	8.41000E-001	3.89898E-001	0.00000E+000	8.41850E-001	1.02576E-003	13	...........
	976	9.77	8.37048E-001	3.49416E-001	0.00000E+000	8.37850E-001	1.02743E-003	13	...........
	980	9.81	8.33066E-001	3.13377E-001	0.00000E+000	8.33850E-001	1.03409E-003	13	...........
	984	9.85	8.29001E-001	2.81240E-001	0.00000E+000	8.29850E-001	1.03409E-003	13	...........
	988	9.89	8.24997E-001	2.51300E-001	0.00000E+000	8.25850E-001	1.04243E-003	13	...........
	992	9.93	8.21015E-001	2.20008E-001	0.00000E+000	8.21850E-001	1.05493E-003	13	...........
	996	9.97	8.17036E-001	1.86888E-001	0.00000E+000	8.17850E-001	1.03159E-003	13	...........
	1000	10.01	8.13021E-001	1.51578E-001	0.00000E+000	8.13850E-001	1.02243E-003	13	...........
	1004	10.05	8.09048E-001	1.14391E-001	0.00000E+000	8.09850E-001	1.03659E-003	13	...........
	1008	10.09	8.05116E-001	7.48272E-002	0.00000E+000	8.05850E-001	1.03076E-003	13	...........
	1012	10.13	8.01032E-001	3.45333E-002	0.00000E+000	8.01850E-001	1.02493E-003	13	...........
	1016	10.17	7.97072E-001	-7.12147E-003	0.00000E+000	7.97850E-001	1.03076E-003	13	...........
	1020	10.21	7.93082E-001	-4.89566E-002	0.00000E+000	7.93850E-001	1.02993E-003	13	...........
	1024	10.25	7.89131E-001	-9.18493E-002	0.00000E+000	7.89850E-001	1.02243E-003	13	...........
	1028	10.29	7.85087E-001	-1.34422E-001	0.00000E+000	7.85850E-001	1.06409E-003	13	...........
	1032	10.33	7.81075E-001	-1.77790E-001	0.00000E+000	7.81850E-001	1.03076E-003	13	...........
	1036	10.37	7.77097E-001	-2.20683E-001	0.00000E+000	7.77850E-001	1.09159E-003	13	...........
	1040	10.41	7.73169E-001	-2.62477E-001	0.00000E+000	7.73850E-001	1.03743E-003	13	...........
	1044	10.45	7.69098E-001	-3.03542E-001	0.00000E+000	7.69850E-001	1.04659E-003	13	...........
	1048	10.49	7.65144E-001	-3.44401E-001	0.00000E+000	7.65850E-001	1.02826E-003	13	...........
	1052	10.53	7.61145E-001	-3.84794E-001	0.00000E+000	7.61850E-001	1.06909E-003	13	...........
	1056	10.57	7.57147E-001	-4.25768E-001	0.00000E+000	7.57850E-001	1.04659E-003	13	...........
	1060	10.61	7.53166E-001	-4.67390E-001	0.00000E+000	7.53850E-001	1.03909E-003	13	...........
	1064	10.65	7.49172E-001	-5.08487E-001	0.00000E+000	7.49850E-001	1.04243E-003	13	...........
	1068	10.69	7.45166E-001	-5.50757E-001	0.00000E+000	7.45850E-001	1.06076E-003	13	...........
	1072	10.73	7.41182E-001	-5.92986E-001	0.00000E+000	7.41850E-001	1.03493E-003	13	...........
	1076	10.77	7.37172E-001	-6.34501E-001	0.00000E+000	7.37850E-001	1.05326E-003	13	...........
	1080	10.81	7.33169E-001	-6.77213E-001	0.00000E+000	7.33850E-001	1.04826E-003	13	...........
	1084	10.85	7.29213E-001	-7.19368E-001	0.00000E+000	7.29850E-001	1.03993E-003	13	...........
	1088	10.89	7.25208E-001	-7.60728E-001	0.00000E+000	7.25850E-001	1.04326E-003	13	...........
	1092	10.93	7.21196E-001	-8.03547E-001	0.00000E+000	7.21850E-001	1.06076E-003	13	...........
	1096	10.97	7.17226E-001	-8.45423E-001	0.00000E+000	7.17850E-001	1.03159E-003	13	...........
	1100	11.01	7.13190E-001	-8.88217E-001	0.00000E+000	7.13850E-001	1.05409E-003	13	...........
	1104	11.05	7.09206E-001	-9.32200E-001	0.00000E+000	7.09850E-001	1.02576E-003	13	...........
	1108	11.09	7.05220E-001	-9.75486E-001	0.00000E+000	7.05850E-001	1.04909E-003	13	...........
	1112	11.13	7.01240E-001	-1.01888E+000	0.00000E+000	7.01850E-001	1.02743E-003	13	...........
	1116	11.17	6.97218E-001	-1.06250E+000	0.00000E+000	6.97850E-001	1.03076E-003	13	...........
	1120	11.21	6.93223E-001	-1.10540E+000	0.00000E+000	6.93850E-001	1.03243E-003	13	...........
	1124	11.25	6.89232E-001	-1.14770E+000	0.00000E+000	6.89850E-001	1.01993E-003	13	...........
	1128	11.29	6.85225E-001	-1.18967E+000	0.00000E+000	6.85850E-001	1.03409E-003	13	...........
	1132	11.33	6.81257E-001	-1.23148E+000	0.00000E+000	6.81850E-001	1.05909E-003	13	...........
	1136	11.37	6.77270E-001	-1.27158E+000	0.00000E+000	6.77850E-001	1.03743E-003	13	...........
	1140	11.41	6.73259E-001	-1.31223E+000	0.00000E+000	6.73850E-001	1.03159E-003	13	...........
	1144	11.45	6.69285E-001	-1.35231E+000	0.00000E+000	6.69850E-001	1.03743E-003	13	...........
	1148	11.49	6.65280E-001	-1.39211E+000	0.00000E+000	6.65850E-001	1.04826E-003	13	...........
	1152	11.53	6.61278E-001	-1.43247E+000	0.00000E+000	6.61850E-001	1.03076E-003	13	...........
	1156	11.57	6.57305E-001	-1.47282E+000	0.00000E+000	6.57850E-001	1.03659E-003	13	...........
	1160	11.61	6.53316E-001	-1.51520E+000	0.00000E+000	6.53850E-001	1.03326E-003	13	...........
	1164	11.65	6.49303E-001	-1.56074E+000	0.00000E+000	6.49850E-001	1.03159E-003	13	...........
	1168	11.69	6.45327E-001	-1.60817E+000	0.00000E+000	6.45850E-001	1.04159E-003	13	...........
	1172	11.73	6.41326E-001	-1.65584E+000	0.00000E+000	6.41850E-001	1.02659E-003	13	...........
	1176	11.77	6.37376E-001	-1.70165E+000	0.00000E+000	6.37850E-001	1.05409E-003	13	...........
	1180	11.81	6.33371E-001	-1.74742E+000	0.00000E+000	6.33850E-001	1.03243E-003	13	...........
	1184	11.85	6.29369E-001	-1.79447E+000	0.00000E+000	6.29850E-001	1.07493E-003	13	...........
	1188	11.89	6.25340E-001	-1.84110E+000	0.00000E+000	6.25850E-001	1.04576E-003	13	...........
	1192	11.93	6.21349E-001	-1.88664E+000	0.00000E+000	6.21850E-001	1.03326E-003	13	...........
	1196	11.97	6.17337E-001	-1.93032E+000	0.00000E+000	6.17850E-001	1.03076E-003	13	...........
	1200	12.01	6.13370E-001	-1.97364E+000	0.00000E+000	6.13850E-001	1.02493E-003	13	...........
	1204	12.05	6.09445E-001	-2.01526E+000	0.00000E+000	6.09850E-001	1.08493E-003	13	...........
	1208	12.09	6.05467E-001	-2.05557E+000	0.00000E+000	6.05850E-001	1.03826E-003	13	...........
	1212	12.13	6.01400E-001	-2.09634E+000	0.00000E+000	6.01850E-001	1.03159E-003	13	...........
	1216	12.17	5.97423E-001	-2.13718E+000	0.00000E+000	5.97850E-001	1.02743E-003	13	...........
	1220	12.21	5.93407E-001	-2.18453E+000	0.00000E+000	5.93850E-001	1.02743E-003	13	...........
	1224	12.25	5.89458E-001	-2.23686E+000	0.00000E+000	5.89850E-001	1.07576E-003	13	...........
	1228	12.29	5.85485E-001	-2.29125E+000	0.00000E+000	5.85850E-001	1.02993E-003	13	...........
	1232	12.33	5.81470E-001	-2.34564E+000	0.00000E+000	5.81850E-001	1.06493E-003	13	...........
	1236	12.37	5.77458E-001	-2.39814E+000	0.00000E+000	5.77850E-001	1.04493E-003	13	...........
	1240	12.41	5.73487E-001	-2.44858E+000	0.00000E+000	5.73850E-001	1.02826E-003	13	...........
	1244	12.45	5.69494E-001	-2.49596E+000	0.00000E+000	5.69850E-001	1.03409E-003	13	...........
	1248	12.49	5.65507E-001	-2.54042E+000	0.00000E+000	5.65850E-001	1.01993E-003	13	...........
	1252	12.53	5.61499E-001	-2.58150E+000	0.00000E+000	5.61850E-001	1.05076E-003	13	...........
	1256	12.57	5.57510E-001	-2.61972E+000	0.00000E+000	5.57850E-001	1.02826E-003	13	...........
	1260	12.61	5.53514E-001	-2.65610E+000	0.00000E+000	5.53850E-001	1.02326E-003	13	...........
	1264	12.65	5.49492E-001	-2.69164E+000	0.00000E+000	5.49850E-001	1.03409E-003	13	...........
	1268	12.69	5.45489E-001	-2.72635E+000	0.00000E+000	5.45850E-001	1.03409E-003	13	...........
	1272	12.73	5.41477E-001	-2.76080E+000	0.00000E+000	5.41850E-001	1.02576E-003	13	...........
	1276	12.77	5.37518E-001	-2.79514E+000	0.00000E+000	5.37850E-001	1.02659E-003	13	...........
	1280	12.81	5.33536E-001	-2.83617E+000	0.00000E+000	5.33850E-001	1.03826E-003	13	...........
	1284	12.85	5.29501E-001	-2.88450E+000	0.00000E+000	5.29850E-001	1.02909E-003	13	...........
	1288	12.89	5.25446E-001	-2.93758E+000	0.00000E+000	5.25850E-001	1.02826E-003	13	...........
	1292	12.93	5.21532E-001	-2.99187E+000	0.00000E+000	5.21850E-001	1.03743E-003	13	...........
	1296	12.97	5.17515E-001	-3.04276E+000	0.00000E+000	5.17850E-001	1.02243E-003	13	...........
	1300	13.01	5.13535E-001	-3.09266E+000	0.00000E+000	5.13850E-001	1.02409E-003	13	...........
	1304	13.05	5.09532E-001	-3.14480E+000	0.00000E+000	5.09850E-001	1.02909E-003	13	...........
	1308	13.09	5.05543E-001	-3.19594E+000	0.00000E+000	5.05850E-001	1.03576E-003	13	...........
	1312	13.13	5.01554E-001	-3.24468E+000	0.00000E+000	5.01850E-001	1.04659E-003	13	...........
	1316	13.17	4.97534E-001	-3.29049E+000	0.00000E+000	4.97850E-001	1.05159E-003	13	...........
	1320	13.21	4.93526E-001	-3.33387E+000	0.00000E+000	4.93850E-001	1.03159E-003	13	...........
	1324	13.25	4.89550E-001	-3.37507E+000	0.00000E+000	4.89850E-001	1.02909E-003	13	...........
	1328	13.29	4.85530E-001	-3.41325E+000	0.00000E+000	4.85850E-001	1.01826E-003	13	...........
	1332	13.33	4.81508E-001	-3.45252E+000	0.00000E+000	4.81850E-001	1.02243E-003	13	...........
	1336	13.37	4.77561E-001	-3.49624E+000	0.00000E+000	4.77850E-001	1.03159E-003	13	...........
	1340	13.41	4.73575E-001	-3.55742E+000	0.00000E+000	4.73850E-001	1.05326E-003	13	...........
	1344	13.45	4.69553E-001	-3.63114E+000	0.00000E+000	4.69850E-001	1.02493E-003	13	...........
	1348	13.49	4.65559E-001	-3.70732E+000	0.00000E+000	4.65850E-001	1.03326E-003	13	...........
	1352	13.53	4.61573E-001	-3.78074E+000	0.00000E+000	4.61850E-001	1.04243E-003	13	...........
	1356	13.57	4.57558E-001	-3.84897E+000	0.00000E+000	4.57850E-001	1.02576E-003	13	...........
	1360	13.61	4.53590E-001	-3.91010E+000	0.00000E+000	4.53850E-001	1.03909E-003	13	...........
	1364	13.65	4.49584E-001	-3.96454E+000	0.00000E+000	4.49850E-001	1.02826E-003	13	...........
	1368	13.69	4.45599E-001	-4.01250E+000	0.00000E+000	4.45850E-001	1.02743E-003	13	...........
	1372	13.73	4.41584E-001	-4.05300E+000	0.00000E+000	4.41850E-001	1.02576E-003	13	...........
	1376	13.77	4.37581E-001	-4.08622E+000	0.00000E+000	4.37850E-001	1.03409E-003	13	...........
	1380	13.81	4.33591E-001	-4.11563E+000	0.00000E+000	4.33850E-001	1.02743E-003	13	...........
	1384	13.85	4.29599E-001	-4.14181E+000	0.00000E+000	4.29850E-001	1.03909E-003	13	...........
	1388	13.89	4.25582E-001	-4.16707E+000	0.00000E+000	4.25850E-001	1.03243E-003	13	...........
	1392	13.93	4.21611E-001	-4.19192E+000	0.00000E+000	4.21850E-001	1.04743E-003	13	...........
	1396	13.97	4.17654E-001	-4.21802E+000	0.00000E+000	4.17850E-001	1.08076E-003	13	...........
	1400	14.01	4.13637E-001	-4.25553E+000	0.00000E+000	4.13850E-001	1.03993E-003	13	...........
	1404	14.05	4.09660E-001	-4.30662E+000	0.00000E+000	4.09850E-001	1.05326E-003	13	...........
	1408	14.09	4.05678E-001	-4.36579E+000	0.00000E+000	4.05850E-001	1.02993E-003	13	...........
	1412	14.13	4.01695E-001	-4.42735E+000	0.00000E+000	4.01850E-001	1.03243E-003	13	...........
	1416	14.17	3.97651E-001	-4.48325E+000	0.00000E+000	3.97850E-001	1.02743E-003	13	...........
	1420	14.21	3.93719E-001	-4.53579E+000	0.00000E+000	3.93850E-001	1.04493E-003	13	...........
	1424	14.25	3.89706E-001	-4.59204E+000	0.00000E+000	3.89850E-001	1.03409E-003	13	...........
	1428	14.29	3.85780E-001	-4.64632E+000	0.00000E+000	3.85850E-001	1.03243E-003	13	...........
	1432	14.33	3.81735E-001	-4.69601E+000	0.00000E+000	3.81850E-001	1.02743E-003	13	...........
	1436	14.37	3.77747E-001	-4.74148E+000	0.00000E+000	3.77850E-001	1.03409E-003	13	...........
	1440	14.41	3.73735E-001	-4.78305E+000	0.00000E+000	3.73850E-001	1.04076E-003	13	...........
	1444	14.45	3.69741E-001	-4.82096E+000	0.00000E+000	3.69850E-001	1.05909E-003	13	...........
	1448	14.49	3.65741E-001	-4.85455E+000	0.00000E+000	3.65850E-001	1.03159E-003	13	...........
	1452	14.53	3.61828E-001	-4.89042E+000	0.00000E+000	3.61850E-001	1.03326E-003	13	...........
	1456	14.57	3.57771E-001	-4.94952E+000	0.00000E+000	3.57850E-001	1.03159E-003	13	...........
	1460	14.61	3.53735E-001	-5.04349E+000	0.00000E+000	3.53850E-001	1.02576E-003	13	...........
	1464	14.65	3.49745E-001	-5.15929E+000	0.00000E+000	3.49850E-001	1.02909E-003	13	...........
	1468	14.69	3.45801E-001	-5.27394E+000	0.00000E+000	3.45850E-001	1.04576E-003	13	...........
	1472	14.73	3.41756E-001	-5.37906E+000	0.00000E+000	3.41850E-001	1.03576E-003	13	...........
	1476	14.77	3.37792E-001	-5.46982E+000	0.00000E+000	3.37850E-001	1.01909E-003	13	...........
	1480	14.81	3.33769E-001	-5.54468E+000	0.00000E+000	3.33850E-001	1.03159E-003	13	...........
	1484	14.85	3.29747E-001	-5.60683E+000	0.00000E+000	3.29850E-001	1.03909E-003	13	...........
	1488	14.89	3.25801E-001	-5.65654E+000	0.00000E+000	3.25850E-001	1.03909E-003	13	...........
	1492	14.93	3.21852E-001	-5.69282E+000	0.00000E+000	3.21850E-001	1.02909E-003	13	...........
	1496	14.97	3.17792E-001	-5.71619E+000	0.00000E+000	3.17850E-001	1.02993E-003	13	...........
	1500	15.01	3.13774E-001	-5.73074E+000	0.00000E+000	3.13850E-001	1.05076E-003	13	...........
	1504	15.05	3.09784E-001	-5.74048E+000	0.00000E+000	3.09850E-001	1.02493E-003	13	...........
	1508	15.09	3.05864E-001	-5.74865E+000	0.00000E+000	3.05850E-001	1.02659E-003	13	...........
	1512	15.13	3.01771E-001	-5.75708E+000	0.00000E+000	3.01850E-001	1.02409E-003	13	...........
	1516	15.17	2.97763E-001	-5.76847E+000	0.00000E+000	2.97850E-001	1.02576E-003	13	...........
	1520	15.21	2.93793E-001	-5.79841E+000	0.00000E+000	2.93850E-001	1.02409E-003	13	...........
	1524	15.25	2.89811E-001	-5.84998E+000	0.00000E+000	2.89850E-001	1.03993E-003	13	...........
	1528	15.29	2.85816E-001	-5.91278E+000	0.00000E+000	2.85850E-001	1.02243E-003	13	...........
	1532	15.33	2.81824E-001	-5.97912E+000	0.00000E+000	2.81850E-001	1.02326E-003	13	...........
	1536	15.37	2.77874E-001	-6.03556E+000	0.00000E+000	2.77850E-001	1.02659E-003	13	...........
	1540	15.41	2.73910E-001	-6.08691E+000	0.00000E+000	2.73850E-001	1.03159E-003	13	...........
	1544	15.45	2.69872E-001	-6.14285E+000	0.00000E+000	2.69850E-001	1.02493E-003	13	...........
	1548	15.49	2.65911E-001	-6.19543E+000	0.00000E+000	2.65850E-001	1.02409E-003	13	...........
	1552	15.53	2.61867E-001	-6.24179E+000	0.00000E+000	2.61850E-001	1.02326E-003	13	...........
	1556	15.57	2.57945E-001	-6.28196E+000	0.00000E+000	2.57850E-001	1.05076E-003	13	...........
	1560	15.61	2.53877E-001	-6.31614E+000	0.00000E+000	2.53850E-001	1.04743E-003	13	...........
	1564	15.65	2.49937E-001	-6.34439E+000	0.00000E+000	2.49850E-001	1.05493E-003	13	...........
	1568	15.69	2.45892E-001	-6.36733E+000	0.00000E+000	2.45850E-001	1.03409E-003	13	...........
	1572	15.73	2.41867E-001	-6.39601E+000	0.00000E+000	2.41850E-001	1.03243E-003	13	...........
	1576	15.77	2.37876E-001	-6.48554E+000	0.00000E+000	2.37850E-001	1.05493E-003	13	...........
	1580	15.81	2.33883E-001	-6.64007E+000	0.00000E+000	2.33850E-001	1.02659E-003	13	...........
	1584	15.85	2.29904E-001	-6.82409E+000	0.00000E+000	2.29850E-001	1.02493E-003	13	...........
	1588	15.89	2.25910E-001	-6.99521E+000	0.00000E+000	2.25850E-001	1.02409E-003	13	...........
[...]
	4773	47.74	3.58896E-001	-4.57664E+000	0.00000E+000	3.59000E-001	1.02909E-003	13	...........
	4775	47.76	3.60897E-001	-4.55065E+000	0.00000E+000	3.61000E-001	1.04826E-003	13	...........
	4777	47.78	3.62907E-001	-4.52118E+000	0.00000E+000	3.63000E-001	1.03243E-003	13	...........
	4779	47.8	3.64862E-001	-4.49123E+000	0.00000E+000	3.65000E-001	1.02576E-003	13	...........
	4781	47.82	3.66883E-001	-4.46321E+000	0.00000E+000	3.67000E-001	1.03243E-003	13	...........
	4783	47.84	3.68882E-001	-4.43580E+000	0.00000E+000	3.69000E-001	1.02826E-003	13	...........
	4785	47.86	3.70880E-001	-4.40793E+000	0.00000E+000	3.71000E-001	1.09659E-003	13	...........
	4787	47.88	3.72891E-001	-4.37982E+000	0.00000E+000	3.73000E-001	1.04743E-003	13	...........
	4789	47.9	3.74691E-001	-4.35070E+000	0.00000E+000	3.75000E-001	1.03826E-003	13	...........
	4791	47.92	3.76865E-001	-4.32034E+000	0.00000E+000	3.77000E-001	1.05576E-003	13	...........
	4793	47.94	3.78878E-001	-4.28893E+000	0.00000E+000	3.79000E-001	1.04743E-003	13	...........
	4795	47.96	3.80834E-001	-4.25691E+000	0.00000E+000	3.81000E-001	1.03993E-003	13	...........
	4797	47.98	3.82793E-001	-4.22344E+000	0.00000E+000	3.83000E-001	1.05159E-003	13	...........
	4799	48	3.84828E-001	-4.18901E+000	0.00000E+000	3.85000E-001	1.05159E-003	13	...........
	4801	48.02	3.86865E-001	-4.15471E+000	0.00000E+000	3.87000E-001	1.03826E-003	13	...........
	4803	48.04	3.88847E-001	-4.11938E+000	0.00000E+000	3.89000E-001	1.02826E-003	13	...........
	4805	48.06	3.90813E-001	-4.08364E+000	0.00000E+000	3.91000E-001	1.03243E-003	13	...........
	4807	48.08	3.92833E-001	-4.04620E+000	0.00000E+000	3.93000E-001	1.04326E-003	13	...........
	4809	48.1	3.94814E-001	-4.00935E+000	0.00000E+000	3.95000E-001	1.02409E-003	13	...........
	4811	48.12	3.96815E-001	-3.97136E+000	0.00000E+000	3.97000E-001	1.02743E-003	13	...........
	4813	48.14	3.98704E-001	-3.93890E+000	0.00000E+000	3.99000E-001	1.02493E-003	13	...........
	4815	48.16	4.00803E-001	-3.91162E+000	0.00000E+000	4.01000E-001	1.05993E-003	13	...........
	4817	48.18	4.02775E-001	-3.89457E+000	0.00000E+000	4.03000E-001	1.02409E-003	13	...........
	4819	48.2	4.04843E-001	-3.88633E+000	0.00000E+000	4.05000E-001	1.02909E-003	13	...........
	4821	48.22	4.06784E-001	-3.88728E+000	0.00000E+000	4.07000E-001	1.02743E-003	13	...........
	4823	48.24	4.08780E-001	-3.89289E+000	0.00000E+000	4.09000E-001	1.02409E-003	13	...........
	4825	48.26	4.10741E-001	-3.90028E+000	0.00000E+000	4.11000E-001	1.02493E-003	13	...........
	4827	48.28	4.12776E-001	-3.90630E+000	0.00000E+000	4.13000E-001	1.04659E-003	13	...........
	4829	48.3	4.14744E-001	-3.91136E+000	0.00000E+000	4.15000E-001	1.04493E-003	13	...........
	4831	48.32	4.16781E-001	-3.91268E+000	0.00000E+000	4.17000E-001	1.04159E-003	13	...........
	4833	48.34	4.18757E-001	-3.91143E+000	0.00000E+000	4.19000E-001	1.05159E-003	13	...........
	4835	48.36	4.20762E-001	-3.90562E+000	0.00000E+000	4.21000E-001	1.04993E-003	13	...........
	4837	48.38	4.22723E-001	-3.89723E+000	0.00000E+000	4.23000E-001	1.03576E-003	13	...........
	4839	48.4	4.24757E-001	-3.88414E+000	0.00000E+000	4.25000E-001	1.02743E-003	13	...........
	4841	48.42	4.26727E-001	-3.86778E+000	0.00000E+000	4.27000E-001	1.02659E-003	13	...........
	4843	48.44	4.28744E-001	-3.84842E+000	0.00000E+000	4.29000E-001	1.02909E-003	13	...........
	4845	48.46	4.30753E-001	-3.82606E+000	0.00000E+000	4.31000E-001	1.04243E-003	13	...........
	4847	48.48	4.32751E-001	-3.80091E+000	0.00000E+000	4.33000E-001	1.03326E-003	13	...........
	4849	48.5	4.34725E-001	-3.77346E+000	0.00000E+000	4.35000E-001	1.03409E-003	13	...........
	4851	48.52	4.36743E-001	-3.74279E+000	0.00000E+000	4.37000E-001	1.02243E-003	13	...........
	4853	48.54	4.38737E-001	-3.71048E+000	0.00000E+000	4.39000E-001	1.02659E-003	13	...........
	4855	48.56	4.40740E-001	-3.67552E+000	0.00000E+000	4.41000E-001	1.02659E-003	13	...........
	4857	48.58	4.42706E-001	-3.63878E+000	0.00000E+000	4.43000E-001	1.02909E-003	13	...........
	4859	48.6	4.44744E-001	-3.60038E+000	0.00000E+000	4.45000E-001	1.03409E-003	13	...........
	4861	48.62	4.46735E-001	-3.56112E+000	0.00000E+000	4.47000E-001	1.04243E-003	13	...........
	4863	48.64	4.48739E-001	-3.52180E+000	0.00000E+000	4.49000E-001	1.03243E-003	13	...........
	4865	48.66	4.50666E-001	-3.48216E+000	0.00000E+000	4.51000E-001	1.02743E-003	13	...........
	4867	48.68	4.52745E-001	-3.44218E+000	0.00000E+000	4.53000E-001	1.01909E-003	13	...........
	4869	48.7	4.54667E-001	-3.40233E+000	0.00000E+000	4.55000E-001	1.04409E-003	13	...........
	4871	48.72	4.56740E-001	-3.36325E+000	0.00000E+000	4.57000E-001	1.02743E-003	13	...........
	4873	48.74	4.58702E-001	-3.32334E+000	0.00000E+000	4.59000E-001	1.03576E-003	13	...........
	4875	48.76	4.60708E-001	-3.28412E+000	0.00000E+000	4.61000E-001	1.02159E-003	13	...........
	4877	48.78	4.62695E-001	-3.24740E+000	0.00000E+000	4.63000E-001	1.04409E-003	13	...........
	4879	48.8	4.64736E-001	-3.21373E+000	0.00000E+000	4.65000E-001	1.04409E-003	13	...........
	4881	48.82	4.66668E-001	-3.18362E+000	0.00000E+000	4.67000E-001	1.03076E-003	13	...........
	4883	48.84	4.68722E-001	-3.15629E+000	0.00000E+000	4.69000E-001	1.04409E-003	13	...........
	4885	48.86	4.70744E-001	-3.13171E+000	0.00000E+000	4.71000E-001	1.02909E-003	13	...........
	4887	48.88	4.72710E-001	-3.10834E+000	0.00000E+000	4.73000E-001	1.02743E-003	13	...........
	4889	48.9	4.74701E-001	-3.08558E+000	0.00000E+000	4.75000E-001	1.05076E-003	13	...........
	4891	48.92	4.76729E-001	-3.06291E+000	0.00000E+000	4.77000E-001	1.03076E-003	13	...........
	4893	48.94	4.78730E-001	-3.04109E+000	0.00000E+000	4.79000E-001	1.04159E-003	13	...........
	4895	48.96	4.80733E-001	-3.01732E+000	0.00000E+000	4.81000E-001	1.03326E-003	13	...........
	4897	48.98	4.82650E-001	-2.99112E+000	0.00000E+000	4.83000E-001	1.05076E-003	13	...........
	4899	49	4.84701E-001	-2.96527E+000	0.00000E+000	4.85000E-001	1.02493E-003	13	...........
	4901	49.02	4.86622E-001	-2.94037E+000	0.00000E+000	4.87000E-001	1.01826E-003	13	...........
	4903	49.04	4.88704E-001	-2.91619E+000	0.00000E+000	4.89000E-001	1.02159E-003	13	...........
	4905	49.06	4.90636E-001	-2.89183E+000	0.00000E+000	4.91000E-001	1.02743E-003	13	...........
	4907	49.08	4.92700E-001	-2.86668E+000	0.00000E+000	4.93000E-001	1.04159E-003	13	...........
	4909	49.1	4.94668E-001	-2.84142E+000	0.00000E+000	4.95000E-001	1.02326E-003	13	...........
	4911	49.12	4.96659E-001	-2.81535E+000	0.00000E+000	4.97000E-001	1.02243E-003	13	...........
	4913	49.14	4.98619E-001	-2.78839E+000	0.00000E+000	4.99000E-001	1.03493E-003	13	...........
	4915	49.16	5.00694E-001	-2.76157E+000	0.00000E+000	5.01000E-001	1.02743E-003	13	...........
	4917	49.18	5.02651E-001	-2.73350E+000	0.00000E+000	5.03000E-001	1.01826E-003	13	...........
	4919	49.2	5.04629E-001	-2.70496E+000	0.00000E+000	5.05000E-001	1.02409E-003	13	...........
	4921	49.22	5.06644E-001	-2.67646E+000	0.00000E+000	5.07000E-001	1.02826E-003	13	...........
	4923	49.24	5.08692E-001	-2.64730E+000	0.00000E+000	5.09000E-001	1.04826E-003	13	...........
	4925	49.26	5.10595E-001	-2.61812E+000	0.00000E+000	5.11000E-001	1.03159E-003	13	...........
	4927	49.28	5.12692E-001	-2.58824E+000	0.00000E+000	5.13000E-001	1.02826E-003	13	...........
	4929	49.3	5.14603E-001	-2.55843E+000	0.00000E+000	5.15000E-001	1.03659E-003	13	...........
	4931	49.32	5.16691E-001	-2.52718E+000	0.00000E+000	5.17000E-001	1.03076E-003	13	...........
	4933	49.34	5.18712E-001	-2.49955E+000	0.00000E+000	5.19000E-001	1.02493E-003	13	...........
	4935	49.36	5.20657E-001	-2.47135E+000	0.00000E+000	5.21000E-001	1.05909E-003	13	...........
	4937	49.38	5.22585E-001	-2.44833E+000	0.00000E+000	5.23000E-001	1.02659E-003	13	...........
	4939	49.4	5.24621E-001	-2.42963E+000	0.00000E+000	5.25000E-001	1.02326E-003	13	...........
	4941	49.42	5.26677E-001	-2.41590E+000	0.00000E+000	5.27000E-001	1.03076E-003	13	...........
	4943	49.44	5.28684E-001	-2.40454E+000	0.00000E+000	5.29000E-001	1.03159E-003	13	...........
	4945	49.46	5.30567E-001	-2.39560E+000	0.00000E+000	5.31000E-001	1.07743E-003	13	...........
	4947	49.48	5.32698E-001	-2.38777E+000	0.00000E+000	5.33000E-001	1.02826E-003	13	...........
	4949	49.5	5.34695E-001	-2.37962E+000	0.00000E+000	5.35000E-001	1.04493E-003	13	...........
	4951	49.52	5.36663E-001	-2.37101E+000	0.00000E+000	5.37000E-001	1.03909E-003	13	...........
	4953	49.54	5.38556E-001	-2.36110E+000	0.00000E+000	5.39000E-001	1.05743E-003	13	...........
	4955	49.56	5.40625E-001	-2.34994E+000	0.00000E+000	5.41000E-001	1.02576E-003	13	...........
	4957	49.58	5.42583E-001	-2.33703E+000	0.00000E+000	5.43000E-001	1.02909E-003	13	...........
	4959	49.6	5.44639E-001	-2.32263E+000	0.00000E+000	5.45000E-001	1.03159E-003	13	...........
	4961	49.62	5.46560E-001	-2.30632E+000	0.00000E+000	5.47000E-001	1.06659E-003	13	...........
	4963	49.64	5.48593E-001	-2.28857E+000	0.00000E+000	5.49000E-001	1.04076E-003	13	...........
	4965	49.66	5.50590E-001	-2.26857E+000	0.00000E+000	5.51000E-001	1.08576E-003	13	...........
	4967	49.68	5.52639E-001	-2.24846E+000	0.00000E+000	5.53000E-001	1.02659E-003	13	...........
	4969	49.7	5.54571E-001	-2.22629E+000	0.00000E+000	5.55000E-001	1.02743E-003	13	...........
	4971	49.72	5.56604E-001	-2.20252E+000	0.00000E+000	5.57000E-001	1.04826E-003	13	...........
	4973	49.74	5.58562E-001	-2.17727E+000	0.00000E+000	5.59000E-001	1.04243E-003	13	...........
	4975	49.76	5.60654E-001	-2.15094E+000	0.00000E+000	5.61000E-001	1.02243E-003	13	...........
	4977	49.78	5.62562E-001	-2.12437E+000	0.00000E+000	5.63000E-001	1.02409E-003	13	...........
	4979	49.8	5.64615E-001	-2.09648E+000	0.00000E+000	5.65000E-001	1.03409E-003	13	...........
	4981	49.82	5.66648E-001	-2.06785E+000	0.00000E+000	5.67000E-001	1.02159E-003	13	...........
	4983	49.84	5.68632E-001	-2.03911E+000	0.00000E+000	5.69000E-001	1.03743E-003	13	...........
	4985	49.86	5.70542E-001	-2.01071E+000	0.00000E+000	5.71000E-001	1.02743E-003	13	...........
	4987	49.88	5.72580E-001	-1.98166E+000	0.00000E+000	5.73000E-001	1.03159E-003	13	...........
	4989	49.9	5.74543E-001	-1.95269E+000	0.00000E+000	5.75000E-001	1.03243E-003	13	...........
	4991	49.92	5.76628E-001	-1.92368E+000	0.00000E+000	5.77000E-001	1.02243E-003	13	...........
	4993	49.94	5.78545E-001	-1.89457E+000	0.00000E+000	5.79000E-001	1.03409E-003	13	...........
	4995	49.96	5.80555E-001	-1.86605E+000	0.00000E+000	5.81000E-001	1.03243E-003	13	...........
	4997	49.98	5.82638E-001	-1.83811E+000	0.00000E+000	5.83000E-001	1.03576E-003	13	...........
	4999	50	5.84607E-001	-1.81212E+000	0.00000E+000	5.85000E-001	1.04576E-003	13	...........
	5001	50.02	5.86530E-001	-1.78773E+000	0.00000E+000	5.87000E-001	1.02743E-003	13	...........
	5003	50.04	5.88575E-001	-1.76479E+000	0.00000E+000	5.89000E-001	1.04826E-003	13	...........
	5005	50.06	5.90669E-001	-1.74346E+000	0.00000E+000	5.91000E-001	1.01826E-003	13	...........
	5007	50.08	5.92538E-001	-1.72266E+000	0.00000E+000	5.93000E-001	1.02243E-003	13	...........
	5009	50.1	5.94525E-001	-1.70174E+000	0.00000E+000	5.95000E-001	1.04326E-003	13	...........
	5011	50.12	5.96530E-001	-1.68125E+000	0.00000E+000	5.97000E-001	1.02159E-003	13	...........
	5013	50.14	5.98537E-001	-1.66120E+000	0.00000E+000	5.99000E-001	1.02243E-003	13	...........
	5015	50.16	6.00540E-001	-1.63974E+000	0.00000E+000	6.01000E-001	1.05409E-003	13	...........
	5017	50.18	6.02464E-001	-1.61755E+000	0.00000E+000	6.03000E-001	1.02493E-003	13	...........
	5019	50.2	6.04528E-001	-1.59547E+000	0.00000E+000	6.05000E-001	1.02243E-003	13	...........
	5021	50.22	6.06503E-001	-1.57384E+000	0.00000E+000	6.07000E-001	1.05576E-003	13	...........
	5023	50.24	6.08521E-001	-1.55247E+000	0.00000E+000	6.09000E-001	1.02993E-003	13	...........
	5025	50.26	6.10498E-001	-1.53103E+000	0.00000E+000	6.11000E-001	1.02659E-003	13	...........
	5027	50.28	6.12513E-001	-1.50963E+000	0.00000E+000	6.13000E-001	1.04159E-003	13	...........
	5029	50.3	6.14458E-001	-1.48806E+000	0.00000E+000	6.15000E-001	1.03076E-003	13	...........
	5031	50.32	6.16488E-001	-1.46574E+000	0.00000E+000	6.17000E-001	1.03576E-003	13	...........
	5033	50.34	6.18461E-001	-1.44370E+000	0.00000E+000	6.19000E-001	1.02326E-003	13	...........
	5035	50.36	6.20457E-001	-1.42078E+000	0.00000E+000	6.21000E-001	1.02493E-003	13	...........
	5037	50.38	6.22468E-001	-1.39787E+000	0.00000E+000	6.23000E-001	1.03076E-003	13	...........
	5039	50.4	6.24453E-001	-1.37523E+000	0.00000E+000	6.25000E-001	1.02243E-003	13	...........
	5041	50.42	6.26451E-001	-1.35188E+000	0.00000E+000	6.27000E-001	1.02826E-003	13	...........
	5043	50.44	6.28446E-001	-1.32850E+000	0.00000E+000	6.29000E-001	1.02243E-003	13	...........
	5045	50.46	6.30547E-001	-1.30488E+000	0.00000E+000	6.31000E-001	1.03659E-003	13	...........
	5047	50.48	6.32450E-001	-1.28113E+000	0.00000E+000	6.33000E-001	1.01826E-003	13	...........
	5049	50.5	6.34439E-001	-1.25740E+000	0.00000E+000	6.35000E-001	1.03576E-003	13	...........
	5051	50.52	6.36436E-001	-1.23320E+000	0.00000E+000	6.37000E-001	1.02993E-003	13	...........
	5053	50.54	6.38526E-001	-1.21040E+000	0.00000E+000	6.39000E-001	1.02659E-003	13	...........
	5055	50.56	6.40407E-001	-1.18680E+000	0.00000E+000	6.41000E-001	1.02743E-003	13	...........
	5057	50.58	6.42428E-001	-1.16531E+000	0.00000E+000	6.43000E-001	1.05743E-003	13	...........
	5059	50.6	6.44408E-001	-1.14595E+000	0.00000E+000	6.45000E-001	1.02159E-003	13	...........
	5061	50.62	6.46419E-001	-1.12854E+000	0.00000E+000	6.47000E-001	1.02826E-003	13	...........
	5063	50.64	6.48396E-001	-1.11216E+000	0.00000E+000	6.49000E-001	1.02243E-003	13	...........
	5065	50.66	6.50417E-001	-1.09743E+000	0.00000E+000	6.51000E-001	1.02826E-003	13	...........
	5067	50.68	6.52411E-001	-1.08337E+000	0.00000E+000	6.53000E-001	1.03243E-003	13	...........
	5069	50.7	6.54418E-001	-1.07000E+000	0.00000E+000	6.55000E-001	1.04993E-003	13	...........
	5071	50.72	6.56432E-001	-1.05623E+000	0.00000E+000	6.57000E-001	1.03743E-003	13	...........
	5073	50.74	6.58436E-001	-1.04255E+000	0.00000E+000	6.59000E-001	1.05159E-003	13	...........
	5075	50.76	6.60415E-001	-1.02836E+000	0.00000E+000	6.61000E-001	1.02409E-003	13	...........
	5077	50.78	6.62390E-001	-1.01339E+000	0.00000E+000	6.63000E-001	1.02909E-003	13	...........
	5079	50.8	6.64377E-001	-9.98392E-001	0.00000E+000	6.65000E-001	1.02243E-003	13	...........
	5081	50.82	6.66404E-001	-9.82266E-001	0.00000E+000	6.67000E-001	1.03243E-003	13	...........
	5083	50.84	6.68386E-001	-9.65722E-001	0.00000E+000	6.69000E-001	1.01909E-003	13	...........
	5085	50.86	6.70389E-001	-9.48367E-001	0.00000E+000	6.71000E-001	1.03326E-003	13	...........
	5087	50.88	6.72392E-001	-9.30159E-001	0.00000E+000	6.73000E-001	1.02243E-003	13	...........
	5089	50.9	6.74397E-001	-9.11631E-001	0.00000E+000	6.75000E-001	1.02659E-003	13	...........
	5091	50.92	6.76379E-001	-8.92431E-001	0.00000E+000	6.77000E-001	1.03909E-003	13	...........
	5093	50.94	6.78393E-001	-8.72575E-001	0.00000E+000	6.79000E-001	1.02409E-003	13	...........
	5095	50.96	6.80400E-001	-8.52055E-001	0.00000E+000	6.81000E-001	1.04493E-003	13	...........
	5097	50.98	6.82368E-001	-8.31650E-001	0.00000E+000	6.83000E-001	1.02493E-003	13	...........
	5099	51	6.84349E-001	-8.10589E-001	0.00000E+000	6.85000E-001	1.02826E-003	13	...........
	5101	51.02	6.86388E-001	-7.88724E-001	0.00000E+000	6.87000E-001	1.07159E-003	13	...........
	5103	51.04	6.88367E-001	-7.67434E-001	0.00000E+000	6.89000E-001	1.03743E-003	13	...........
	5105	51.06	6.90362E-001	-7.45865E-001	0.00000E+000	6.91000E-001	1.01326E-003	13	...........
	5107	51.08	6.92330E-001	-7.24008E-001	0.00000E+000	6.93000E-001	1.06659E-003	13	...........
	5109	51.1	6.94388E-001	-7.02144E-001	0.00000E+000	6.95000E-001	1.02993E-003	13	...........
	5111	51.12	6.96357E-001	-6.80525E-001	0.00000E+000	6.97000E-001	1.01993E-003	13	...........
	5113	51.14	6.98361E-001	-6.58226E-001	0.00000E+000	6.99000E-001	1.01826E-003	13	...........
	5115	51.16	7.00340E-001	-6.36534E-001	0.00000E+000	7.01000E-001	1.04493E-003	13	...........
	5117	51.18	7.02365E-001	-6.15301E-001	0.00000E+000	7.03000E-001	1.03159E-003	13	...........
	5119	51.2	7.04346E-001	-5.94674E-001	0.00000E+000	7.05000E-001	1.02576E-003	13	...........
	5121	51.22	7.06361E-001	-5.74654E-001	0.00000E+000	7.07000E-001	1.02493E-003	13	...........
	5123	51.24	7.08267E-001	-5.55258E-001	0.00000E+000	7.09000E-001	1.03576E-003	13	...........
	5125	51.26	7.10355E-001	-5.36090E-001	0.00000E+000	7.11000E-001	1.08493E-003	13	...........
	5127	51.28	7.12352E-001	-5.17046E-001	0.00000E+000	7.13000E-001	1.02909E-003	13	...........
	5129	51.3	7.14359E-001	-4.98469E-001	0.00000E+000	7.15000E-001	1.03243E-003	13	...........
	5131	51.32	7.16306E-001	-4.79974E-001	0.00000E+000	7.17000E-001	1.03576E-003	13	...........
	5133	51.34	7.18354E-001	-4.61208E-001	0.00000E+000	7.19000E-001	1.02076E-003	13	...........
	5135	51.36	7.20279E-001	-4.42049E-001	0.00000E+000	7.21000E-001	1.04659E-003	13	...........
	5137	51.38	7.22333E-001	-4.22997E-001	0.00000E+000	7.23000E-001	1.01993E-003	13	...........
	5139	51.4	7.24343E-001	-4.03330E-001	0.00000E+000	7.25000E-001	1.03826E-003	13	...........
	5141	51.42	7.26363E-001	-3.84507E-001	0.00000E+000	7.27000E-001	1.07493E-003	13	...........
	5143	51.44	7.28339E-001	-3.65782E-001	0.00000E+000	7.29000E-001	1.02826E-003	13	...........
	5145	51.46	7.30359E-001	-3.46566E-001	0.00000E+000	7.31000E-001	1.07159E-003	13	...........
	5147	51.48	7.32243E-001	-3.27751E-001	0.00000E+000	7.33000E-001	1.04576E-003	13	...........
	5149	51.5	7.34332E-001	-3.08329E-001	0.00000E+000	7.35000E-001	1.03159E-003	13	...........
	5151	51.52	7.36318E-001	-2.88842E-001	0.00000E+000	7.37000E-001	1.06076E-003	13	...........
	5153	51.54	7.38356E-001	-2.69585E-001	0.00000E+000	7.39000E-001	1.07243E-003	13	...........
	5155	51.56	7.40300E-001	-2.50451E-001	0.00000E+000	7.41000E-001	1.04493E-003	13	...........
	5157	51.58	7.42341E-001	-2.30775E-001	0.00000E+000	7.43000E-001	1.03243E-003	13	...........
	5159	51.6	7.44323E-001	-2.11018E-001	0.00000E+000	7.45000E-001	1.02909E-003	13	...........
	5161	51.62	7.46337E-001	-1.91145E-001	0.00000E+000	7.47000E-001	1.06826E-003	13	...........
	5163	51.64	7.48294E-001	-1.71527E-001	0.00000E+000	7.49000E-001	1.02493E-003	13	...........
	5165	51.66	7.50342E-001	-1.51343E-001	0.00000E+000	7.51000E-001	1.02993E-003	13	...........
	5167	51.68	7.52314E-001	-1.31340E-001	0.00000E+000	7.53000E-001	1.03909E-003	13	...........
	5169	51.7	7.54327E-001	-1.11943E-001	0.00000E+000	7.55000E-001	1.02326E-003	13	...........
	5171	51.72	7.56247E-001	-9.20625E-002	0.00000E+000	7.57000E-001	1.02326E-003	13	...........
	5173	51.74	7.58357E-001	-7.20426E-002	0.00000E+000	7.59000E-001	1.02076E-003	13	...........
	5175	51.76	7.60324E-001	-5.25966E-002	0.00000E+000	7.61000E-001	1.02159E-003	13	...........
	5177	51.78	7.62337E-001	-3.28555E-002	0.00000E+000	7.63000E-001	1.05576E-003	13	...........
	5179	51.8	7.64253E-001	-1.45490E-002	0.00000E+000	7.65000E-001	1.03159E-003	13	...........
	5181	51.82	7.66302E-001	4.05260E-003	0.00000E+000	7.67000E-001	1.02909E-003	13	...........
	5183	51.84	7.68160E-001	2.12359E-002	0.00000E+000	7.69000E-001	1.03743E-003	13	...........
	5185	51.86	7.70319E-001	3.82553E-002	0.00000E+000	7.71000E-001	1.01909E-003	13	...........
	5187	51.88	7.72288E-001	5.44302E-002	0.00000E+000	7.73000E-001	1.03576E-003	13	...........
	5189	51.9	7.74302E-001	7.05314E-002	0.00000E+000	7.75000E-001	1.02993E-003	13	...........
	5191	51.92	7.76214E-001	8.70588E-002	0.00000E+000	7.77000E-001	1.04993E-003	13	...........
	5193	51.94	7.78289E-001	1.03365E-001	0.00000E+000	7.79000E-001	1.03659E-003	13	...........
	5195	51.96	7.80218E-001	1.20335E-001	0.00000E+000	7.81000E-001	1.02993E-003	13	...........
	5197	51.98	7.82315E-001	1.36461E-001	0.00000E+000	7.83000E-001	1.02743E-003	13	...........
	5199	52	7.84199E-001	1.53283E-001	0.00000E+000	7.85000E-001	1.02659E-003	13	...........
	5200	52.01	7.85292E-001	1.61900E-001	0.00000E+000	7.86000E-001	1.02409E-003	13	...........